date	time	group	subject	build	blocknum	trialnum	blockcode	trialcode	pretrialpause	posttrialpause	trialduration	trialtimeout	response	correct	latency	stimulusnumber1	stimulusitem1	stimulusonset1	stimulusnumber2	stimulusitem2	stimulusonset2	stimulusnumber3	stimulusitem3	stimulusonset3	stimulusnumber4	stimulusitem4	stimulusonset4	stimulusnumber5	stimulusitem5	stimulusonset5
010917	12:48:58	1	1	5.0.5.0	1	1	Blok1Intro	Instructions1	0	0	0	0	Volgende	0	39	1	Slide1.jpg	3	1	Volgende.png	3	0	0	0	0	0	0	0	0	0
010917	12:48:58	1	1	5.0.5.0	1	2	Blok1Intro	Instructions1	0	0	0	0	Volgende	0	46	2	Slide2.jpg	1	1	Volgende.png	1	0	0	0	0	0	0	0	0	0
010917	12:48:58	1	1	5.0.5.0	2	1	Blokinfo	entry	0	0	0	0	"monkey"	0	38	1	Name	0	1	Name	0	1	Name	0	0	0	0	0	0	0
010917	12:48:58	1	1	5.0.5.0	2	2	Blokinfo	entry	0	0	0	0	"monkey"	0	50	2	Last Name	0	2	Last Name	0	2	Last Name	0	0	0	0	0	0	0
010917	12:48:58	1	1	5.0.5.0	2	3	Blokinfo	entry	0	0	0	0	"monkey"	0	49	3	BSN number	0	3	BSN number	0	3	BSN number	0	0	0	0	0	0	0
010917	12:48:58	1	1	5.0.5.0	3	1	Blok1choiceinfo	Instructions2	0	0	0	0	Volgende	0	52	1	Slide3.jpg	1	1	Volgende.png	1	0	0	0	0	0	0	0	0	0
010917	12:48:58	1	1	5.0.5.0	4	1	choiceblock	choicetrial	0	0	0	0	ll	0	40	14	22	1	14	22.11	1	1	Euro Now	1	2	Euro in 4 Weeks	1	1	Remember to choose what you prefer by clicking on the amount	1
010917	12:48:58	1	1	5.0.5.0	4	2	choiceblock	choicetrial	0	0	0	0	ll	0	27	4	28	1	4	29.40	1	1	Euro Now	1	1	Euro in 3 Weeks	1	1	Remember to choose what you prefer by clicking on the amount	1
010917	12:48:58	1	1	5.0.5.0	4	3	choiceblock	choicetrial	0	0	0	0	ss	0	43	7	32	1	7	35.20	1	1	Euro Now	1	1	Euro in 3 Weeks	1	1	Remember to choose what you prefer by clicking on the amount	1
010917	12:48:58	1	1	5.0.5.0	4	4	choiceblock	choicetrial	0	0	0	0	ss	0	46	19	23	1	19	25.07	1	1	Euro Now	1	2	Euro in 4 Weeks	1	1	Remember to choose what you prefer by clicking on the amount	1
010917	12:48:58	1	1	5.0.5.0	4	5	choiceblock	choicetrial	0	0	0	0	ll	0	37	24	27	1	24	35.10	1	1	Euro Now	1	2	Euro in 4 Weeks	1	1	Remember to choose what you prefer by clicking on the amount	1
010917	12:48:58	1	1	5.0.5.0	4	6	choiceblock	choicetrial	0	0	0	0	ll	0	58	16	31	1	16	31.93	1	1	Euro Now	1	1	Euro in 3 Weeks	1	1	Remember to choose what you prefer by clicking on the amount	1
010917	12:48:58	1	1	5.0.5.0	4	7	choiceblock	choicetrial	0	0	0	0	ll	0	49	9	25	1	9	28.75	1	1	Euro Now	1	2	Euro in 4 Weeks	1	1	Remember to choose what you prefer by clicking on the amount	1
010917	12:48:58	1	1	5.0.5.0	4	8	choiceblock	choicetrial	0	0	0	0	ll	0	44	11	28	1	11	36.40	1	1	Euro Now	1	1	Euro in 3 Weeks	1	1	Remember to choose what you prefer by clicking on the amount	1
010917	12:48:58	1	1	5.0.5.0	4	9	choiceblock	choicetrial	0	0	0	0	ll	0	45	5	24	1	5	25.68	1	1	Euro Now	1	1	Euro in 3 Weeks	1	1	Remember to choose what you prefer by clicking on the amount	1
010917	12:48:58	1	1	5.0.5.0	4	10	choiceblock	choicetrial	0	0	0	0	ss	0	41	22	23	1	22	26.45	1	1	Euro Now	1	2	Euro in 4 Weeks	1	1	Remember to choose what you prefer by clicking on the amount	1
010917	12:48:58	1	1	5.0.5.0	4	11	choiceblock	choicetrial	0	0	0	0	ss	0	31	3	35	1	3	36.05	1	1	Euro Now	1	2	Euro in 4 Weeks	1	1	Remember to choose what you prefer by clicking on the amount	1
010917	12:48:58	1	1	5.0.5.0	4	12	choiceblock	choicetrial	0	0	0	0	ll	0	46	17	22	1	17	23.10	1	1	Euro Now	1	1	Euro in 3 Weeks	1	1	Remember to choose what you prefer by clicking on the amount	1
010917	12:48:58	1	1	5.0.5.0	4	13	choiceblock	choicetrial	0	0	0	0	ss	0	46	25	22	1	25	33	1	1	Euro Now	1	1	Euro in 3 Weeks	1	1	Remember to choose what you prefer by clicking on the amount	1
010917	12:48:58	1	1	5.0.5.0	4	14	choiceblock	choicetrial	0	0	0	0	ll	0	52	2	32	1	2	32.33	1	1	Euro Now	1	2	Euro in 4 Weeks	1	1	Remember to choose what you prefer by clicking on the amount	1
010917	12:48:58	1	1	5.0.5.0	4	15	choiceblock	choicetrial	0	0	0	0	ss	0	37	10	35	1	10	42	1	1	Euro Now	1	2	Euro in 4 Weeks	1	1	Remember to choose what you prefer by clicking on the amount	1
010917	12:48:58	1	1	5.0.5.0	4	16	choiceblock	choicetrial	0	0	0	0	ll	0	43	15	27	1	15	27.27	1	1	Euro Now	1	1	Euro in 3 Weeks	1	1	Remember to choose what you prefer by clicking on the amount	1
010917	12:48:58	1	1	5.0.5.0	4	17	choiceblock	choicetrial	0	0	0	0	ll	0	53	12	21	1	12	31.50	1	1	Euro Now	1	2	Euro in 4 Weeks	1	1	Remember to choose what you prefer by clicking on the amount	1
010917	12:48:58	1	1	5.0.5.0	4	18	choiceblock	choicetrial	0	0	0	0	ll	0	42	6	32	1	6	34.88	1	1	Euro Now	1	1	Euro in 3 Weeks	1	1	Remember to choose what you prefer by clicking on the amount	1
010917	12:48:58	1	1	5.0.5.0	4	19	choiceblock	choicetrial	0	0	0	0	ll	0	39	13	34	1	13	57.80	1	1	Euro Now	1	1	Euro in 3 Weeks	1	1	Remember to choose what you prefer by clicking on the amount	1
010917	12:48:58	1	1	5.0.5.0	4	20	choiceblock	choicetrial	0	0	0	0	ll	0	21	1	33	1	1	33.17	1	1	Euro Now	1	2	Euro in 4 Weeks	1	1	Remember to choose what you prefer by clicking on the amount	1
010917	12:48:58	1	1	5.0.5.0	4	21	choiceblock	choicetrial	0	0	0	0	ss	0	31	26	34	1	26	57.80	1	1	Euro Now	1	1	Euro in 3 Weeks	1	1	Remember to choose what you prefer by clicking on the amount	1
010917	12:48:58	1	1	5.0.5.0	4	22	choiceblock	choicetrial	0	0	0	0	ll	0	42	21	24	1	21	26.88	1	1	Euro Now	1	2	Euro in 4 Weeks	1	1	Remember to choose what you prefer by clicking on the amount	1
010917	12:48:58	1	1	5.0.5.0	4	23	choiceblock	choicetrial	0	0	0	0	ll	0	35	8	27	1	8	30.24	1	1	Euro Now	1	1	Euro in 3 Weeks	1	1	Remember to choose what you prefer by clicking on the amount	1
010917	12:48:58	1	1	5.0.5.0	4	24	choiceblock	choicetrial	0	0	0	0	ss	0	35	20	20	1	20	22	1	1	Euro Now	1	2	Euro in 4 Weeks	1	1	Remember to choose what you prefer by clicking on the amount	1
010917	12:48:58	1	1	5.0.5.0	4	25	choiceblock	choicetrial	0	0	0	0	ss	0	48	23	33	1	23	39.60	1	1	Euro Now	1	2	Euro in 4 Weeks	1	1	Remember to choose what you prefer by clicking on the amount	1
010917	12:48:58	1	1	5.0.5.0	4	26	choiceblock	choicetrial	0	0	0	0	ss	0	53	18	20	1	18	21.40	1	1	Euro Now	1	1	Euro in 3 Weeks	1	1	Remember to choose what you prefer by clicking on the amount	1
010917	12:48:58	1	1	5.0.5.0	5	1	Blok1rating	Instructions3	0	0	0	0	Volgende	0	45	1	Slide4.jpg	1	1	Volgende.png	1	0	0	0	0	0	0	0	0	0
010917	12:48:58	1	1	5.0.5.0	6	1	rates	scale	0	0	0	0	2	0	30	3	rombhus.png	35	0	0	0	0	0	0	0	0	0	0	0	0
010917	12:48:58	1	1	5.0.5.0	6	2	rates	scale	0	0	0	0	5	0	36	4	pentagon.png	35	0	0	0	0	0	0	0	0	0	0	0	0
010917	12:48:58	1	1	5.0.5.0	6	3	rates	scale	0	0	0	0	7	0	33	1	triangle.png	35	0	0	0	0	0	0	0	0	0	0	0	0
010917	12:48:58	1	1	5.0.5.0	6	4	rates	scale	0	0	0	0	6	0	45	5	circle.png	35	0	0	0	0	0	0	0	0	0	0	0	0
010917	12:48:58	1	1	5.0.5.0	6	5	rates	scale	0	0	0	0	6	0	32	2	square.png	35	0	0	0	0	0	0	0	0	0	0	0	0
010917	12:48:58	1	1	5.0.5.0	7	1	further	Instructions4	0	0	0	0	Volgende	0	58	1	Slide5.jpg	1	1	Volgende.png	1	0	0	0	0	0	0	0	0	0
010917	12:48:58	1	1	5.0.5.0	8	1	payoutblock	enterlotterytrial	0	0	0	0	57	0	42	1	The amount is 25,07	1	1	The amount you chose in trial #9 was entered into the lottery.	1	1	Press space bar to start the lottery, Good luck!	1	0	0	0	0	0	0
010917	12:48:58	1	1	5.0.5.0	8	2	payoutblock	showlistcontents	0	0	200	0	0	0	200	1	1	1	1	Please wait, we will now draw your lottery number	1	0	0	0	0	0	0	0	0	0
010917	12:48:58	1	1	5.0.5.0	8	3	payoutblock	showlistcontents	0	0	200	0	0	0	200	1	2	0	1	Please wait, we will now draw your lottery number	0	0	0	0	0	0	0	0	0	0
010917	12:48:58	1	1	5.0.5.0	8	4	payoutblock	showlistcontents	0	0	200	0	0	0	200	1	3	1	1	Please wait, we will now draw your lottery number	1	0	0	0	0	0	0	0	0	0
010917	12:48:58	1	1	5.0.5.0	8	5	payoutblock	showlistcontents	0	0	200	0	0	0	200	1	4	1	1	Please wait, we will now draw your lottery number	1	0	0	0	0	0	0	0	0	0
010917	12:48:58	1	1	5.0.5.0	8	6	payoutblock	showlistcontents	0	0	200	0	0	0	200	1	5	0	1	Please wait, we will now draw your lottery number	0	0	0	0	0	0	0	0	0	0
010917	12:48:58	1	1	5.0.5.0	8	7	payoutblock	showlistcontents	0	0	200	0	0	0	200	1	6	0	1	Please wait, we will now draw your lottery number	0	0	0	0	0	0	0	0	0	0
010917	12:48:58	1	1	5.0.5.0	8	8	payoutblock	showlistcontents	0	0	200	0	0	0	200	1	7	1	1	Please wait, we will now draw your lottery number	1	0	0	0	0	0	0	0	0	0
010917	12:48:58	1	1	5.0.5.0	8	9	payoutblock	showlistcontents	0	0	200	0	0	0	200	1	8	1	1	Please wait, we will now draw your lottery number	1	0	0	0	0	0	0	0	0	0
010917	12:48:58	1	1	5.0.5.0	8	10	payoutblock	showlistcontents	0	0	200	0	0	0	200	1	9	1	1	Please wait, we will now draw your lottery number	1	0	0	0	0	0	0	0	0	0
010917	12:48:58	1	1	5.0.5.0	8	11	payoutblock	showlistcontents	0	0	200	0	0	0	200	1	10	0	1	Please wait, we will now draw your lottery number	0	0	0	0	0	0	0	0	0	0
010917	12:48:58	1	1	5.0.5.0	8	12	payoutblock	showlistcontents	0	0	200	0	0	0	200	1	11	1	1	Please wait, we will now draw your lottery number	1	0	0	0	0	0	0	0	0	0
010917	12:48:58	1	1	5.0.5.0	8	13	payoutblock	showlistcontents	0	0	200	0	0	0	200	1	12	1	1	Please wait, we will now draw your lottery number	1	0	0	0	0	0	0	0	0	0
010917	12:48:58	1	1	5.0.5.0	8	14	payoutblock	showlistcontents	0	0	200	0	0	0	200	1	13	0	1	Please wait, we will now draw your lottery number	0	0	0	0	0	0	0	0	0	0
010917	12:48:58	1	1	5.0.5.0	8	15	payoutblock	showlistcontents	0	0	200	0	0	0	200	1	14	1	1	Please wait, we will now draw your lottery number	1	0	0	0	0	0	0	0	0	0
010917	12:48:58	1	1	5.0.5.0	8	16	payoutblock	showlistcontents	0	0	200	0	0	0	200	1	15	1	1	Please wait, we will now draw your lottery number	1	0	0	0	0	0	0	0	0	0
010917	12:48:58	1	1	5.0.5.0	8	17	payoutblock	showlistcontents	0	0	200	0	0	0	200	1	16	1	1	Please wait, we will now draw your lottery number	1	0	0	0	0	0	0	0	0	0
010917	12:48:58	1	1	5.0.5.0	8	18	payoutblock	showlistcontents	0	0	200	0	0	0	200	1	17	0	1	Please wait, we will now draw your lottery number	0	0	0	0	0	0	0	0	0	0
010917	12:48:58	1	1	5.0.5.0	8	19	payoutblock	showlistcontents	0	0	200	0	0	0	200	1	18	1	1	Please wait, we will now draw your lottery number	1	0	0	0	0	0	0	0	0	0
010917	12:48:58	1	1	5.0.5.0	8	20	payoutblock	showlistcontents	0	0	200	0	0	0	200	1	19	1	1	Please wait, we will now draw your lottery number	1	0	0	0	0	0	0	0	0	0
010917	12:48:58	1	1	5.0.5.0	8	21	payoutblock	showlistcontents	0	0	200	0	0	0	200	1	200	1	1	Please wait, we will now draw your lottery number	1	0	0	0	0	0	0	0	0	0
010917	12:48:58	1	1	5.0.5.0	8	22	payoutblock	showlistcontents	0	0	200	0	0	0	200	1	212	1	1	Please wait, we will now draw your lottery number	1	0	0	0	0	0	0	0	0	0
010917	12:48:58	1	1	5.0.5.0	8	23	payoutblock	showlistcontents	0	0	200	0	0	0	200	1	222	0	1	Please wait, we will now draw your lottery number	0	0	0	0	0	0	0	0	0	0
010917	12:48:58	1	1	5.0.5.0	8	24	payoutblock	showlistcontents	0	0	200	0	0	0	200	1	232	1	1	Please wait, we will now draw your lottery number	1	0	0	0	0	0	0	0	0	0
010917	12:48:58	1	1	5.0.5.0	8	25	payoutblock	showlistcontents	0	0	200	0	0	0	200	1	224	1	1	Please wait, we will now draw your lottery number	1	0	0	0	0	0	0	0	0	0
010917	12:48:58	1	1	5.0.5.0	8	26	payoutblock	showlistcontents	0	0	200	0	0	0	200	1	235	0	1	Please wait, we will now draw your lottery number	0	0	0	0	0	0	0	0	0	0
010917	12:48:58	1	1	5.0.5.0	8	27	payoutblock	showlistcontents	0	0	200	0	0	0	200	1	26	0	1	Please wait, we will now draw your lottery number	0	0	0	0	0	0	0	0	0	0
010917	12:48:58	1	1	5.0.5.0	8	28	payoutblock	showlistcontents	0	0	200	0	0	0	200	1	227	1	1	Please wait, we will now draw your lottery number	1	0	0	0	0	0	0	0	0	0
010917	12:48:58	1	1	5.0.5.0	8	29	payoutblock	showlistcontents	0	0	200	0	0	0	200	1	282	1	1	Please wait, we will now draw your lottery number	1	0	0	0	0	0	0	0	0	0
010917	12:48:58	1	1	5.0.5.0	8	30	payoutblock	showlistcontents	0	0	200	0	0	0	200	1	29	1	1	Please wait, we will now draw your lottery number	1	0	0	0	0	0	0	0	0	0
010917	12:48:58	1	1	5.0.5.0	8	31	payoutblock	showlistcontents	0	0	200	0	0	0	200	1	30	1	1	Please wait, we will now draw your lottery number	1	0	0	0	0	0	0	0	0	0
010917	12:48:58	1	1	5.0.5.0	8	32	payoutblock	showlistcontents	0	0	200	0	0	0	200	1	313	1	1	Please wait, we will now draw your lottery number	1	0	0	0	0	0	0	0	0	0
010917	12:48:58	1	1	5.0.5.0	8	33	payoutblock	showlistcontents	0	0	200	0	0	0	200	1	323	1	1	Please wait, we will now draw your lottery number	1	0	0	0	0	0	0	0	0	0
010917	12:48:58	1	1	5.0.5.0	8	34	payoutblock	showlistcontents	0	0	200	0	0	0	200	1	333	1	1	Please wait, we will now draw your lottery number	1	0	0	0	0	0	0	0	0	0
010917	12:48:58	1	1	5.0.5.0	8	35	payoutblock	showlistcontents	0	0	200	0	0	0	200	1	334	0	1	Please wait, we will now draw your lottery number	0	0	0	0	0	0	0	0	0	0
010917	12:48:58	1	1	5.0.5.0	8	36	payoutblock	showlistcontents	0	0	200	0	0	0	200	1	353	1	1	Please wait, we will now draw your lottery number	1	0	0	0	0	0	0	0	0	0
010917	12:48:58	1	1	5.0.5.0	8	37	payoutblock	showlistcontents	0	0	200	0	0	0	200	1	36	1	1	Please wait, we will now draw your lottery number	1	0	0	0	0	0	0	0	0	0
010917	12:48:58	1	1	5.0.5.0	8	38	payoutblock	showlistcontents	0	0	200	0	0	0	200	1	37	1	1	Please wait, we will now draw your lottery number	1	0	0	0	0	0	0	0	0	0
010917	12:48:58	1	1	5.0.5.0	8	39	payoutblock	showlistcontents	0	0	200	0	0	0	200	1	38	1	1	Please wait, we will now draw your lottery number	1	0	0	0	0	0	0	0	0	0
010917	12:48:58	1	1	5.0.5.0	8	40	payoutblock	showlistcontents	0	0	200	0	0	0	200	1	39	1	1	Please wait, we will now draw your lottery number	1	0	0	0	0	0	0	0	0	0
010917	12:48:58	1	1	5.0.5.0	8	41	payoutblock	showlistcontents	0	0	200	0	0	0	200	1	40	0	1	Please wait, we will now draw your lottery number	0	0	0	0	0	0	0	0	0	0
010917	12:48:58	1	1	5.0.5.0	8	42	payoutblock	showlistcontents	0	0	200	0	0	0	200	1	41	1	1	Please wait, we will now draw your lottery number	1	0	0	0	0	0	0	0	0	0
010917	12:48:58	1	1	5.0.5.0	8	43	payoutblock	showlistcontents	0	0	200	0	0	0	200	1	424	0	1	Please wait, we will now draw your lottery number	0	0	0	0	0	0	0	0	0	0
010917	12:48:58	1	1	5.0.5.0	8	44	payoutblock	showlistcontents	0	0	200	0	0	0	200	1	43	0	1	Please wait, we will now draw your lottery number	0	0	0	0	0	0	0	0	0	0
010917	12:48:58	1	1	5.0.5.0	8	45	payoutblock	showlistcontents	0	0	200	0	0	0	200	1	44	1	1	Please wait, we will now draw your lottery number	1	0	0	0	0	0	0	0	0	0
010917	12:48:58	1	1	5.0.5.0	8	46	payoutblock	showlistcontents	0	0	200	0	0	0	200	1	45	1	1	Please wait, we will now draw your lottery number	1	0	0	0	0	0	0	0	0	0
010917	12:48:58	1	1	5.0.5.0	8	47	payoutblock	showlistcontents	0	0	200	0	0	0	200	1	46	1	1	Please wait, we will now draw your lottery number	1	0	0	0	0	0	0	0	0	0
010917	12:48:58	1	1	5.0.5.0	8	48	payoutblock	showlistcontents	0	0	200	0	0	0	200	1	47	1	1	Please wait, we will now draw your lottery number	1	0	0	0	0	0	0	0	0	0
010917	12:48:58	1	1	5.0.5.0	8	49	payoutblock	showlistcontents	0	0	200	0	0	0	200	1	48	1	1	Please wait, we will now draw your lottery number	1	0	0	0	0	0	0	0	0	0
010917	12:48:58	1	1	5.0.5.0	8	50	payoutblock	showlistcontents	0	0	200	0	0	0	200	1	49	0	1	Please wait, we will now draw your lottery number	0	0	0	0	0	0	0	0	0	0
010917	12:48:58	1	1	5.0.5.0	8	51	payoutblock	showlistcontents	0	0	200	0	0	0	200	1	50	0	1	Please wait, we will now draw your lottery number	0	0	0	0	0	0	0	0	0	0
010917	12:48:58	1	1	5.0.5.0	8	52	payoutblock	showlistcontents	0	0	200	0	0	0	200	1	51	0	1	Please wait, we will now draw your lottery number	0	0	0	0	0	0	0	0	0	0
010917	12:48:58	1	1	5.0.5.0	8	53	payoutblock	showlistcontents	0	0	200	0	0	0	200	1	52	1	1	Please wait, we will now draw your lottery number	1	0	0	0	0	0	0	0	0	0
010917	12:48:58	1	1	5.0.5.0	8	54	payoutblock	showlistcontents	0	0	200	0	0	0	200	1	53	1	1	Please wait, we will now draw your lottery number	1	0	0	0	0	0	0	0	0	0
010917	12:48:58	1	1	5.0.5.0	8	55	payoutblock	showlistcontents	0	0	200	0	0	0	200	1	54	1	1	Please wait, we will now draw your lottery number	1	0	0	0	0	0	0	0	0	0
010917	12:48:58	1	1	5.0.5.0	8	56	payoutblock	showlistcontents	0	0	200	0	0	0	200	1	55	1	1	Please wait, we will now draw your lottery number	1	0	0	0	0	0	0	0	0	0
010917	12:48:58	1	1	5.0.5.0	8	57	payoutblock	showlistcontents	0	0	200	0	0	0	200	1	56	1	1	Please wait, we will now draw your lottery number	1	0	0	0	0	0	0	0	0	0
010917	12:48:58	1	1	5.0.5.0	8	58	payoutblock	showlistcontents	0	0	200	0	0	0	200	1	57	1	1	Please wait, we will now draw your lottery number	1	0	0	0	0	0	0	0	0	0
010917	12:48:58	1	1	5.0.5.0	8	59	payoutblock	showlistcontents	0	0	200	0	0	0	200	1	58	0	1	Please wait, we will now draw your lottery number	0	0	0	0	0	0	0	0	0	0
010917	12:48:58	1	1	5.0.5.0	8	60	payoutblock	showlistcontents	0	0	200	0	0	0	200	1	59	0	1	Please wait, we will now draw your lottery number	0	0	0	0	0	0	0	0	0	0
010917	12:48:58	1	1	5.0.5.0	8	61	payoutblock	showlistcontents	0	0	200	0	0	0	200	1	60	1	1	Please wait, we will now draw your lottery number	1	0	0	0	0	0	0	0	0	0
010917	12:48:58	1	1	5.0.5.0	8	62	payoutblock	showlistcontents	0	0	200	0	0	0	200	1	61	1	1	Please wait, we will now draw your lottery number	1	0	0	0	0	0	0	0	0	0
010917	12:48:58	1	1	5.0.5.0	8	63	payoutblock	showlistcontents	0	0	200	0	0	0	200	1	62	1	1	Please wait, we will now draw your lottery number	1	0	0	0	0	0	0	0	0	0
010917	12:48:58	1	1	5.0.5.0	8	64	payoutblock	showlistcontents	0	0	200	0	0	0	200	1	63	0	1	Please wait, we will now draw your lottery number	0	0	0	0	0	0	0	0	0	0
010917	12:48:58	1	1	5.0.5.0	8	65	payoutblock	showlistcontents	0	0	200	0	0	0	200	1	64	0	1	Please wait, we will now draw your lottery number	0	0	0	0	0	0	0	0	0	0
010917	12:48:58	1	1	5.0.5.0	8	66	payoutblock	showlistcontents	0	0	200	0	0	0	200	1	65	0	1	Please wait, we will now draw your lottery number	0	0	0	0	0	0	0	0	0	0
010917	12:48:58	1	1	5.0.5.0	8	67	payoutblock	showlistcontents	0	0	200	0	0	0	200	1	66	1	1	Please wait, we will now draw your lottery number	1	0	0	0	0	0	0	0	0	0
010917	12:48:58	1	1	5.0.5.0	8	68	payoutblock	showlistcontents	0	0	200	0	0	0	200	1	67	1	1	Please wait, we will now draw your lottery number	1	0	0	0	0	0	0	0	0	0
010917	12:48:58	1	1	5.0.5.0	8	69	payoutblock	showlistcontents	0	0	200	0	0	0	200	1	68	1	1	Please wait, we will now draw your lottery number	1	0	0	0	0	0	0	0	0	0
010917	12:48:58	1	1	5.0.5.0	8	70	payoutblock	showlistcontents	0	0	200	0	0	0	200	1	69	1	1	Please wait, we will now draw your lottery number	1	0	0	0	0	0	0	0	0	0
010917	12:48:58	1	1	5.0.5.0	8	71	payoutblock	showlistcontents	0	0	200	0	0	0	200	1	70	0	1	Please wait, we will now draw your lottery number	0	0	0	0	0	0	0	0	0	0
010917	12:48:58	1	1	5.0.5.0	8	72	payoutblock	showlistcontents	0	0	200	0	0	0	200	1	71	1	1	Please wait, we will now draw your lottery number	1	0	0	0	0	0	0	0	0	0
010917	12:48:58	1	1	5.0.5.0	8	73	payoutblock	showlistcontents	0	0	200	0	0	0	200	1	72	0	1	Please wait, we will now draw your lottery number	0	0	0	0	0	0	0	0	0	0
010917	12:48:58	1	1	5.0.5.0	8	74	payoutblock	showlistcontents	0	0	200	0	0	0	200	1	73	1	1	Please wait, we will now draw your lottery number	1	0	0	0	0	0	0	0	0	0
010917	12:48:58	1	1	5.0.5.0	8	75	payoutblock	showlistcontents	0	0	200	0	0	0	200	1	74	1	1	Please wait, we will now draw your lottery number	1	0	0	0	0	0	0	0	0	0
010917	12:48:58	1	1	5.0.5.0	8	76	payoutblock	showlistcontents	0	0	200	0	0	0	200	1	75	1	1	Please wait, we will now draw your lottery number	1	0	0	0	0	0	0	0	0	0
010917	12:48:58	1	1	5.0.5.0	8	77	payoutblock	showlistcontents	0	0	200	0	0	0	200	1	76	1	1	Please wait, we will now draw your lottery number	1	0	0	0	0	0	0	0	0	0
010917	12:48:58	1	1	5.0.5.0	8	78	payoutblock	showlistcontents	0	0	200	0	0	0	200	1	77	0	1	Please wait, we will now draw your lottery number	0	0	0	0	0	0	0	0	0	0
010917	12:48:58	1	1	5.0.5.0	8	79	payoutblock	showlistcontents	0	0	200	0	0	0	200	1	78	0	1	Please wait, we will now draw your lottery number	0	0	0	0	0	0	0	0	0	0
010917	12:48:58	1	1	5.0.5.0	8	80	payoutblock	showlistcontents	0	0	200	0	0	0	200	1	79	1	1	Please wait, we will now draw your lottery number	1	0	0	0	0	0	0	0	0	0
010917	12:48:58	1	1	5.0.5.0	8	81	payoutblock	showlistcontents	0	0	200	0	0	0	200	1	80	1	1	Please wait, we will now draw your lottery number	1	0	0	0	0	0	0	0	0	0
010917	12:48:58	1	1	5.0.5.0	8	82	payoutblock	showlistcontents	0	0	200	0	0	0	200	1	81	1	1	Please wait, we will now draw your lottery number	1	0	0	0	0	0	0	0	0	0
010917	12:48:58	1	1	5.0.5.0	8	83	payoutblock	showlistcontents	0	0	200	0	0	0	200	1	82	0	1	Please wait, we will now draw your lottery number	0	0	0	0	0	0	0	0	0	0
010917	12:48:58	1	1	5.0.5.0	8	84	payoutblock	showlistcontents	0	0	200	0	0	0	200	1	83	1	1	Please wait, we will now draw your lottery number	1	0	0	0	0	0	0	0	0	0
010917	12:48:58	1	1	5.0.5.0	8	85	payoutblock	showlistcontents	0	0	200	0	0	0	200	1	84	1	1	Please wait, we will now draw your lottery number	1	0	0	0	0	0	0	0	0	0
010917	12:48:58	1	1	5.0.5.0	8	86	payoutblock	showlistcontents	0	0	200	0	0	0	200	1	85	0	1	Please wait, we will now draw your lottery number	0	0	0	0	0	0	0	0	0	0
010917	12:48:58	1	1	5.0.5.0	8	87	payoutblock	showlistcontents	0	0	200	0	0	0	200	1	86	0	1	Please wait, we will now draw your lottery number	0	0	0	0	0	0	0	0	0	0
010917	12:48:58	1	1	5.0.5.0	8	88	payoutblock	showlistcontents	0	0	200	0	0	0	200	1	87	1	1	Please wait, we will now draw your lottery number	1	0	0	0	0	0	0	0	0	0
010917	12:48:58	1	1	5.0.5.0	8	89	payoutblock	showlistcontents	0	0	200	0	0	0	200	1	88	1	1	Please wait, we will now draw your lottery number	1	0	0	0	0	0	0	0	0	0
010917	12:48:58	1	1	5.0.5.0	8	90	payoutblock	showlistcontents	0	0	200	0	0	0	200	1	89	0	1	Please wait, we will now draw your lottery number	0	0	0	0	0	0	0	0	0	0
010917	12:48:58	1	1	5.0.5.0	8	91	payoutblock	showlistcontents	0	0	200	0	0	0	200	1	90	1	1	Please wait, we will now draw your lottery number	1	0	0	0	0	0	0	0	0	0
010917	12:48:58	1	1	5.0.5.0	8	92	payoutblock	showlistcontents	0	0	200	0	0	0	200	1	91	1	1	Please wait, we will now draw your lottery number	1	0	0	0	0	0	0	0	0	0
010917	12:48:58	1	1	5.0.5.0	8	93	payoutblock	showlistcontents	0	0	200	0	0	0	200	1	92	1	1	Please wait, we will now draw your lottery number	1	0	0	0	0	0	0	0	0	0
010917	12:48:58	1	1	5.0.5.0	8	94	payoutblock	showlistcontents	0	0	200	0	0	0	200	1	93	1	1	Please wait, we will now draw your lottery number	1	0	0	0	0	0	0	0	0	0
010917	12:48:58	1	1	5.0.5.0	8	95	payoutblock	showlistcontents	0	0	200	0	0	0	200	1	94	0	1	Please wait, we will now draw your lottery number	0	0	0	0	0	0	0	0	0	0
010917	12:48:58	1	1	5.0.5.0	8	96	payoutblock	showlistcontents	0	0	200	0	0	0	200	1	95	0	1	Please wait, we will now draw your lottery number	0	0	0	0	0	0	0	0	0	0
010917	12:48:58	1	1	5.0.5.0	8	97	payoutblock	showlistcontents	0	0	200	0	0	0	200	1	96	1	1	Please wait, we will now draw your lottery number	1	0	0	0	0	0	0	0	0	0
010917	12:48:58	1	1	5.0.5.0	8	98	payoutblock	showlistcontents	0	0	200	0	0	0	200	1	97	1	1	Please wait, we will now draw your lottery number	1	0	0	0	0	0	0	0	0	0
010917	12:48:58	1	1	5.0.5.0	8	99	payoutblock	showlistcontents	0	0	200	0	0	0	200	1	98	1	1	Please wait, we will now draw your lottery number	1	0	0	0	0	0	0	0	0	0
010917	12:48:58	1	1	5.0.5.0	8	100	payoutblock	showlistcontents	0	0	200	0	0	0	200	1	99	1	1	Please wait, we will now draw your lottery number	1	0	0	0	0	0	0	0	0	0
010917	12:48:58	1	1	5.0.5.0	8	101	payoutblock	showlistcontents	0	0	200	0	0	0	200	1	25,0700000000000002842	1	1	Please wait, we will now draw your lottery number	1	0	0	0	0	0	0	0	0	0
010917	12:48:58	1	1	5.0.5.0	8	102	payoutblock	drawnumber	0	0	0	0	57	0	36	1	Number drawn: 9	1	1	I'm sorry, you lost	1	1	Press the spacebar to continue	1	0	0	0	0	0	0
010917	12:48:58	1	1	5.0.5.0	9	1	thanks	Instructions5	0	0	0	0	Volgende	0	51	1	Slide6.jpg	1	1	Volgende.png	1	0	0	0	0	0	0	0	0	0
